T0,T2,T1,lagT1,lagT2,lagEnd,responseT1,responseT2,block.thisRepN,block.thisTrialN,block.thisN,block.thisIndex,trials_context.thisRepN,trials_context.thisTrialN,trials_context.thisN,trials_context.thisIndex,trials_T1.thisRepN,trials_T1.thisTrialN,trials_T1.thisN,trials_T1.thisIndex,trials_T2.thisRepN,trials_T2.thisTrialN,trials_T2.thisN,trials_T2.thisIndex,thisRow.t,notes,instructions.started,text_insctructions.started,instructions.stopped,context.started,context_word.started,blankContext.started,context_word.stopped,blankContext.stopped,context.stopped,distractors.started,text_disctractors.started,text_disctractors.stopped,distractors.stopped,T1_number.started,text_T1.started,text_T1.stopped,T1_number.stopped,T2_probe.started,text_T2.started,text_T2.stopped,T2_probe.stopped,Ask_T1.started,blankT1_1.started,text_T1ask.started,key_resp_T1.started,blankT1_1.stopped,text_T1ask.stopped,blankT1_2.started,key_resp_T1.stopped,blankT1_2.stopped,Ask_T1.stopped,key_resp_T1.keys,key_resp_T1.corr,Ask_T2.started,blankT2_1.started,blankT2_1.stopped,text_T2ask.started,key_resp_T2.started,text_T2ask.stopped,blankT2_2.started,key_resp_T2.stopped,blankT2_2.stopped,Ask_T2.stopped,key_resp_T2.keys,key_resp_T2.corr,participant,session,date,expName,psychopyVersion,frameRate,expStart,
XHANDSX,XXFEETX,7777777,7,1,12,j,f,0,0,0,3,,,,,0,0,0,0,,,,,3.969020799966529,,0.014331899816170335,0.031714299926534295,0.2157389000058174,0.2206955999135971,0.2322684999089688,1.1997765998821706,1.2329744999296963,2.2012102999724448,2.1843379999045283,3.9571825999300927,3.969020799966529,4.052481399849057,4.036380199948326,3.7693880998995155,3.8855595998466015,3.969020799966529,3.952684599906206,,,,,,,,,,,,,,,,,,,,,,,,,,,,,312036,001,2024-03-06_16h43.36.905,AB,2023.2.3,60.36609621779943,2024-03-06 16h43.46.562496 +0100,
XSTOREX,XXSHOPX,1111111,9,3,8,j,f,0,0,0,3,,,,,0,1,1,1,,,,,4.052481399849057,,,,,,,,,,,4.036633099894971,4.052481399849057,4.136012200033292,4.1195906000211835,,,,,,,,,,,,,,,,,,,,,,,,,,,,,,,,,312036,001,2024-03-06_16h43.36.905,AB,2023.2.3,60.36609621779943,2024-03-06 16h43.46.562496 +0100,
XXCATXX,XKITTEN,9999999,10,1,9,j,f,0,0,0,3,,,,,0,2,2,3,,,,,4.136012200033292,,,,,,,,,,,4.1198432999663055,4.136012200033292,4.220010599819943,4.2032369000371546,,,,,,,,,,,,,,,,,,,,,,,,,,,,,,,,,312036,001,2024-03-06_16h43.36.905,AB,2023.2.3,60.36609621779943,2024-03-06 16h43.46.562496 +0100,
XSTRAWX,XXHAYXX,4444444,7,1,12,f,f,0,0,0,3,,,,,0,3,3,6,,,,,4.220010599819943,,,,,,,,,,,4.2035038999747485,4.220010599819943,4.303154799854383,4.28688729996793,,,,,,,,,,,,,,,,,,,,,,,,,,,,,,,,,312036,001,2024-03-06_16h43.36.905,AB,2023.2.3,60.36609621779943,2024-03-06 16h43.46.562496 +0100,
PROMISE,XPLEDGE,2222222,7,1,12,f,f,0,0,0,3,,,,,0,4,4,8,,,,,4.303154799854383,,,,,,,,,,,4.287145199952647,4.303154799854383,4.386146100005135,4.370110200019553,,,,,,,,,,,,,,,,,,,,,,,,,,,,,,,,,312036,001,2024-03-06_16h43.36.905,AB,2023.2.3,60.36609621779943,2024-03-06 16h43.46.562496 +0100,
XXBAGXX,XXSACKX,3333333,9,3,8,j,f,0,0,0,3,,,,,0,5,5,5,,,,,4.386146100005135,,,,,,,,,,,4.370357999810949,4.386146100005135,4.469922699965537,4.453308399999514,,,,,,,,,,,,,,,,,,,,,,,,,,,,,,,,,312036,001,2024-03-06_16h43.36.905,AB,2023.2.3,60.36609621779943,2024-03-06 16h43.46.562496 +0100,
XPONDER,XTHINKX,5555555,9,7,4,j,f,0,0,0,3,,,,,0,6,6,4,,,,,4.469922699965537,,,,,,,,,,,4.45361249987036,4.469922699965537,4.552931499900296,4.536819000029936,,,,,,,,,,,,,,,,,,,,,,,,,,,,,,,,,312036,001,2024-03-06_16h43.36.905,AB,2023.2.3,60.36609621779943,2024-03-06 16h43.46.562496 +0100,
XWEEDSX,XROOTSX,7777777,8,3,9,j,f,0,0,0,3,,,,,0,7,7,7,,,,,4.552931499900296,,,,,,,,,,,4.537067499943078,4.552931499900296,4.636891399975866,4.620027899974957,,,,,,,,,,,,,,,,,,,,,,,,,,,,,,,,,312036,001,2024-03-06_16h43.36.905,AB,2023.2.3,60.36609621779943,2024-03-06 16h43.46.562496 +0100,
CURTAIN,XDRAPEX,8888888,9,7,4,f,f,0,0,0,3,,,,,0,8,8,2,,,,,4.636891399975866,,,,,,,,,,,4.620287499856204,4.636891399975866,4.7199050998315215,4.703787399921566,,,,,,,,,,,,,,,,,,,,,,,,,,,,,,,,,312036,001,2024-03-06_16h43.36.905,AB,2023.2.3,60.36609621779943,2024-03-06 16h43.46.562496 +0100,
XSTOREX,XXSHOPX,1111111,9,3,8,j,f,0,0,0,3,,,,,,,,,0,0,0,1,4.886473999824375,,,,,,,,,,,4.874974000034854,4.886473999824375,4.9699166000355035,4.953680400038138,,,,,4.703864299925044,4.803316599922255,4.886473999824375,4.870579799870029,,,,,,,,,,,,,,,,,,,,,,,,,312036,001,2024-03-06_16h43.36.905,AB,2023.2.3,60.36609621779943,2024-03-06 16h43.46.562496 +0100,
XWEEDSX,XROOTSX,7777777,8,3,9,j,f,0,0,0,3,,,,,,,,,0,1,1,7,4.9699166000355035,,,,,,,,,,,4.953939900035039,4.9699166000355035,5.053378999931738,5.037412999896333,,,,,,,,,,,,,,,,,,,,,,,,,,,,,,,,,312036,001,2024-03-06_16h43.36.905,AB,2023.2.3,60.36609621779943,2024-03-06 16h43.46.562496 +0100,
CURTAIN,XDRAPEX,8888888,9,7,4,f,f,0,0,0,3,,,,,,,,,0,2,2,2,5.053378999931738,,,,,,,,,,,5.03767229989171,5.053378999931738,5.136697500012815,5.120684899855405,,,,,,,,,,,,,,,,,,,,,,,,,,,,,,,,,312036,001,2024-03-06_16h43.36.905,AB,2023.2.3,60.36609621779943,2024-03-06 16h43.46.562496 +0100,
XSTRAWX,XXHAYXX,4444444,7,1,12,f,f,0,0,0,3,,,,,,,,,0,3,3,6,5.136697500012815,,,,,,,,,,,5.120932599995285,5.136697500012815,5.22044359985739,5.203882599947974,,,,,,,,,,,,,,,,,,,,,,,,,,,,,,,,,312036,001,2024-03-06_16h43.36.905,AB,2023.2.3,60.36609621779943,2024-03-06 16h43.46.562496 +0100,
PROMISE,XPLEDGE,2222222,7,1,12,f,f,0,0,0,3,,,,,,,,,0,4,4,8,5.22044359985739,,,,,,,,,,,5.204142999835312,5.22044359985739,5.303893100004643,5.287618099944666,,,,,,,,,,,,,,,,,,,,,,,,,,,,,,,,,312036,001,2024-03-06_16h43.36.905,AB,2023.2.3,60.36609621779943,2024-03-06 16h43.46.562496 +0100,
XXCATXX,XKITTEN,9999999,10,1,9,j,f,0,0,0,3,,,,,,,,,0,5,5,3,5.303893100004643,,,,,,,,,,,5.287878699833527,5.303893100004643,5.387035799911246,5.371247199829668,,,,,,,,,,,,,,,,,,,,,,,,,,,,,,,,,312036,001,2024-03-06_16h43.36.905,AB,2023.2.3,60.36609621779943,2024-03-06 16h43.46.562496 +0100,
XXBAGXX,XXSACKX,3333333,9,3,8,j,f,0,0,0,3,,,,,,,,,0,6,6,5,5.387035799911246,,,,,,,,,,,5.37150919996202,5.387035799911246,5.470620600041002,5.4542868998833,,,,,,,,,,,,,,,,,,,,,,,,,,,,,,,,,312036,001,2024-03-06_16h43.36.905,AB,2023.2.3,60.36609621779943,2024-03-06 16h43.46.562496 +0100,
XHANDSX,XXFEETX,7777777,7,1,12,j,f,0,0,0,3,,,,,,,,,0,7,7,0,5.470620600041002,,,,,,,,,,,5.454548700014129,5.470620600041002,,5.537416199920699,,,,,,,,,,,,,,,,,,,,,,,,,,,,,,,,,312036,001,2024-03-06_16h43.36.905,AB,2023.2.3,60.36609621779943,2024-03-06 16h43.46.562496 +0100,
XPONDER,XTHINKX,5555555,9,7,4,j,f,0,0,0,3,,,,,,,,,0,8,8,4,5.554160199826583,,,,,,,,,,,5.53768329997547,5.554160199826583,,5.620731699978933,,,,,,,,,,,,,,,,,,,,,,,,,,,,,,,,,312036,001,2024-03-06_16h43.36.905,AB,2023.2.3,60.36609621779943,2024-03-06 16h43.46.562496 +0100,
XPONDER,XTHINKX,5555555,9,7,4,j,f,0,1,1,4,,,,,0,0,0,4,,,,,17.38246909994632,,,,,13.613329699961469,13.629187299869955,14.629826399963349,14.629826399963349,15.631119000026956,15.614690499845892,17.37108949990943,17.38246909994632,17.46566540002823,17.449434199836105,17.199236099841073,17.29900879994966,17.38246909994632,17.366228899918497,,,,,5.620814499910921,5.637505399994552,6.621897999895737,6.621897999895737,6.638581099919975,8.623766500037163,8.623766500037163,8.623766500037163,9.624936199979857,9.608529499964789,None,0,9.610848899930716,9.624936199979857,10.625942299840972,10.625942299840972,10.625942299840972,12.628411100013182,12.628411100013182,12.628411100013182,13.629187299869955,13.612926899921149,None,0,312036,001,2024-03-06_16h43.36.905,AB,2023.2.3,60.36609621779943,2024-03-06 16h43.46.562496 +0100,
XXBAGXX,XXSACKX,3333333,9,3,8,j,f,0,1,1,4,,,,,0,1,1,5,,,,,17.46566540002823,,,,,,,,,,,17.449683299986646,17.46566540002823,17.549204099923372,17.53310070000589,,,,,,,,,,,,,,,,,,,,,,,,,,,,,,,,,312036,001,2024-03-06_16h43.36.905,AB,2023.2.3,60.36609621779943,2024-03-06 16h43.46.562496 +0100,
CURTAIN,XDRAPEX,8888888,9,7,4,f,f,0,1,1,4,,,,,0,2,2,2,,,,,17.549204099923372,,,,,,,,,,,17.533345599891618,17.549204099923372,17.632423399947584,17.616584699833766,,,,,,,,,,,,,,,,,,,,,,,,,,,,,,,,,312036,001,2024-03-06_16h43.36.905,AB,2023.2.3,60.36609621779943,2024-03-06 16h43.46.562496 +0100,
XSTOREX,XXSHOPX,1111111,9,3,8,j,f,0,1,1,4,,,,,0,3,3,1,,,,,17.632423399947584,,,,,,,,,,,17.61684549995698,17.632423399947584,17.716033099917695,17.699731800006703,,,,,,,,,,,,,,,,,,,,,,,,,,,,,,,,,312036,001,2024-03-06_16h43.36.905,AB,2023.2.3,60.36609621779943,2024-03-06 16h43.46.562496 +0100,
XHANDSX,XXFEETX,7777777,7,1,12,j,f,0,1,1,4,,,,,0,4,4,0,,,,,17.716033099917695,,,,,,,,,,,17.700021999888122,17.716033099917695,17.799614500021562,17.783639000030234,,,,,,,,,,,,,,,,,,,,,,,,,,,,,,,,,312036,001,2024-03-06_16h43.36.905,AB,2023.2.3,60.36609621779943,2024-03-06 16h43.46.562496 +0100,
XWEEDSX,XROOTSX,7777777,8,3,9,j,f,0,1,1,4,,,,,0,5,5,7,,,,,17.799614500021562,,,,,,,,,,,17.783928900025785,17.799614500021562,17.88368529989384,17.86716299992986,,,,,,,,,,,,,,,,,,,,,,,,,,,,,,,,,312036,001,2024-03-06_16h43.36.905,AB,2023.2.3,60.36609621779943,2024-03-06 16h43.46.562496 +0100,
XXCATXX,XKITTEN,9999999,10,1,9,j,f,0,1,1,4,,,,,0,6,6,3,,,,,17.88368529989384,,,,,,,,,,,17.8674399999436,17.88368529989384,17.96619309997186,17.95025959983468,,,,,,,,,,,,,,,,,,,,,,,,,,,,,,,,,312036,001,2024-03-06_16h43.36.905,AB,2023.2.3,60.36609621779943,2024-03-06 16h43.46.562496 +0100,
PROMISE,XPLEDGE,2222222,7,1,12,f,f,0,1,1,4,,,,,0,7,7,8,,,,,17.96619309997186,,,,,,,,,,,17.95051410002634,17.96619309997186,18.04995059990324,18.033625799929723,,,,,,,,,,,,,,,,,,,,,,,,,,,,,,,,,312036,001,2024-03-06_16h43.36.905,AB,2023.2.3,60.36609621779943,2024-03-06 16h43.46.562496 +0100,
XSTRAWX,XXHAYXX,4444444,7,1,12,f,f,0,1,1,4,,,,,0,8,8,6,,,,,18.04995059990324,,,,,,,,,,,18.033878299873322,18.04995059990324,18.133233999833465,18.117428599856794,,,,,,,,,,,,,,,,,,,,,,,,,,,,,,,,,312036,001,2024-03-06_16h43.36.905,AB,2023.2.3,60.36609621779943,2024-03-06 16h43.46.562496 +0100,
CURTAIN,XDRAPEX,8888888,9,7,4,f,f,0,1,1,4,,,,,,,,,0,0,0,2,18.300231599947438,,,,,,,,,,,18.28908949997276,18.300231599947438,18.38360139983706,18.367294399999082,,,,,18.117544499924406,18.217026700032875,18.300231599947438,18.284402000019327,,,,,,,,,,,,,,,,,,,,,,,,,312036,001,2024-03-06_16h43.36.905,AB,2023.2.3,60.36609621779943,2024-03-06 16h43.46.562496 +0100,
XSTOREX,XXSHOPX,1111111,9,3,8,j,f,0,1,1,4,,,,,,,,,0,1,1,1,18.38360139983706,,,,,,,,,,,18.367551799863577,18.38360139983706,18.467122199945152,18.45059509994462,,,,,,,,,,,,,,,,,,,,,,,,,,,,,,,,,312036,001,2024-03-06_16h43.36.905,AB,2023.2.3,60.36609621779943,2024-03-06 16h43.46.562496 +0100,
XXCATXX,XKITTEN,9999999,10,1,9,j,f,0,1,1,4,,,,,,,,,0,2,2,3,18.467122199945152,,,,,,,,,,,18.45100609981455,18.467122199945152,18.550673799822107,18.534183099865913,,,,,,,,,,,,,,,,,,,,,,,,,,,,,,,,,312036,001,2024-03-06_16h43.36.905,AB,2023.2.3,60.36609621779943,2024-03-06 16h43.46.562496 +0100,
XHANDSX,XXFEETX,7777777,7,1,12,j,f,0,1,1,4,,,,,,,,,0,3,3,0,18.550673799822107,,,,,,,,,,,18.534499399829656,18.550673799822107,18.634020899888128,18.617713399929926,,,,,,,,,,,,,,,,,,,,,,,,,,,,,,,,,312036,001,2024-03-06_16h43.36.905,AB,2023.2.3,60.36609621779943,2024-03-06 16h43.46.562496 +0100,
XPONDER,XTHINKX,5555555,9,7,4,j,f,0,1,1,4,,,,,,,,,0,4,4,4,18.634020899888128,,,,,,,,,,,18.617974299937487,18.634020899888128,18.717325599864125,18.701133399968967,,,,,,,,,,,,,,,,,,,,,,,,,,,,,,,,,312036,001,2024-03-06_16h43.36.905,AB,2023.2.3,60.36609621779943,2024-03-06 16h43.46.562496 +0100,
XWEEDSX,XROOTSX,7777777,8,3,9,j,f,0,1,1,4,,,,,,,,,0,5,5,7,18.717325599864125,,,,,,,,,,,18.701382899889722,18.717325599864125,18.80066439998336,18.78418769990094,,,,,,,,,,,,,,,,,,,,,,,,,,,,,,,,,312036,001,2024-03-06_16h43.36.905,AB,2023.2.3,60.36609621779943,2024-03-06 16h43.46.562496 +0100,
XXBAGXX,XXSACKX,3333333,9,3,8,j,f,0,1,1,4,,,,,,,,,0,6,6,5,18.80066439998336,,,,,,,,,,,18.784445099998266,18.80066439998336,18.88387729995884,18.867763299960643,,,,,,,,,,,,,,,,,,,,,,,,,,,,,,,,,312036,001,2024-03-06_16h43.36.905,AB,2023.2.3,60.36609621779943,2024-03-06 16h43.46.562496 +0100,
XSTRAWX,XXHAYXX,4444444,7,1,12,f,f,0,1,1,4,,,,,,,,,0,7,7,6,18.88387729995884,,,,,,,,,,,18.868012299994007,18.88387729995884,18.96756389993243,18.951119699981064,,,,,,,,,,,,,,,,,,,,,,,,,,,,,,,,,312036,001,2024-03-06_16h43.36.905,AB,2023.2.3,60.36609621779943,2024-03-06 16h43.46.562496 +0100,
PROMISE,XPLEDGE,2222222,7,1,12,f,f,0,1,1,4,,,,,,,,,0,8,8,8,18.96756389993243,,,,,,,,,,,18.951379799982533,18.96756389993243,19.050745999906212,19.0345631998498,,,,,,,,,,,,,,,,,,,,,,,,,,,,,,,,,312036,001,2024-03-06_16h43.36.905,AB,2023.2.3,60.36609621779943,2024-03-06 16h43.46.562496 +0100,
,,,,,,,,,,,,,,,,,,,,,,,,,,,,,,,,,,,,,,,,,,,,,,,19.034640499856323,19.050745999906212,20.05209679994732,20.05209679994732,20.05209679994732,22.05357929994352,22.05357929994352,22.05357929994352,,,,,,,,,,,,,,,,,,,,,,,,
