probe,sectag,relatedu,firstnum,dis1num,dis2num,bignum,oddeven,dislist,block.thisRepN,block.thisTrialN,block.thisN,block.thisIndex,trials_context.thisRepN,trials_context.thisTrialN,trials_context.thisN,trials_context.thisIndex,trials_T1.thisRepN,trials_T1.thisTrialN,trials_T1.thisN,trials_T1.thisIndex,trials_T2.thisRepN,trials_T2.thisTrialN,trials_T2.thisN,trials_T2.thisIndex,thisRow.t,notes,instructions.started,text_insctructions.started,instructions.stopped,context.started,context_word.started,blankContext.started,context_word.stopped,blankContext.stopped,context.stopped,distractors.started,text_disctractors.started,distractors.stopped,T1_number.started,text_T1.started,text_T1.stopped,T1_number.stopped,text_disctractors.stopped,T2_probe.started,text_T2.started,text_T2.stopped,T2_probe.stopped,Ask_T1.started,blankT1_1.started,blankT1_1.stopped,text_7.started,key_resp_T1.started,text_7.stopped,blankT1_2.started,key_resp_T1.stopped,blankT1_2.stopped,Ask_T1.stopped,key_resp_T1.keys,key_resp_T1.corr,Ask_T2.started,blankT2_1.started,blankT2_1.stopped,text_11.started,key_resp_T2.started,blankT2_2.started,text_11.stopped,key_resp_T2.stopped,blankT2_2.stopped,Ask_T2.stopped,key_resp_T2.keys,key_resp_T2.corr,key_resp_T1.rt,key_resp_T1.duration,key_resp_T2.rt,key_resp_T2.duration,participant,session,date,expName,psychopyVersion,frameRate,expStart,
果汁,果肉, j,0:09,0:06,0:06,九九,j,火烤,0,0,0,125,,,,,0,0,0,1,,,,,3.935115600004792,,0.015301699982956052,0.03088809992186725,1.0152863999828696,1.0396008999086916,1.048276700079441,2.000499200075865,2.0505391999613494,3.0167236998677254,2.9864167999476194,3.9266969999298453,3.935115600004792,4.00204909988679,3.751429900061339,3.851300499867648,3.935115600004792,3.9185148999094963,4.018452399875969,,,,,,,,,,,,,,,,,,,,,,,,,,,,,,,,,482520,001,2024-03-06_12h48.31.041,AB,2023.2.3,59.78912381117035,2024-03-06 12h48.43.426701 +0100,
果汁,果肉, j,0:09,0:06,0:06,九九,j,体桑,0,0,0,125,,,,,0,1,1,3,,,,,4.018452399875969,,,,,,,,,,,4.002304899971932,4.018452399875969,4.0857039000838995,,,,,4.101660900050774,,,,,,,,,,,,,,,,,,,,,,,,,,,,,,,,,482520,001,2024-03-06_12h48.31.041,AB,2023.2.3,59.78912381117035,2024-03-06 12h48.43.426701 +0100,
果汁,果肉, j,0:09,0:06,0:06,九九,j,良智,0,0,0,125,,,,,0,2,2,0,,,,,4.101660900050774,,,,,,,,,,,4.085958400042728,4.101660900050774,4.169236100045964,,,,,4.184948999900371,,,,,,,,,,,,,,,,,,,,,,,,,,,,,,,,,482520,001,2024-03-06_12h48.31.041,AB,2023.2.3,59.78912381117035,2024-03-06 12h48.43.426701 +0100,
果汁,果肉, j,0:09,0:06,0:06,九九,j,土咽,0,0,0,125,,,,,0,3,3,4,,,,,4.184948999900371,,,,,,,,,,,4.169480399927124,4.184948999900371,4.252394899958745,,,,,4.268732399912551,,,,,,,,,,,,,,,,,,,,,,,,,,,,,,,,,482520,001,2024-03-06_12h48.31.041,AB,2023.2.3,59.78912381117035,2024-03-06 12h48.43.426701 +0100,
果汁,果肉, j,0:09,0:06,0:06,九九,j,线动,0,0,0,125,,,,,0,4,4,2,,,,,4.268732399912551,,,,,,,,,,,4.25264329998754,4.268732399912551,4.335536299971864,,,,,4.351627599913627,,,,,,,,,,,,,,,,,,,,,,,,,,,,,,,,,482520,001,2024-03-06_12h48.31.041,AB,2023.2.3,59.78912381117035,2024-03-06 12h48.43.426701 +0100,
果汁,果肉, j,0:09,0:06,0:06,九九,j,土咽,0,0,0,125,,,,,,,,,0,0,0,4,4.518041899893433,,,,,,,,,,,4.511022799881175,4.518041899893433,4.586063500028104,,,,,4.602049499982968,4.3356113999616355,4.435469599906355,4.518041899893433,4.502635499928147,,,,,,,,,,,,,,,,,,,,,,,,,,,,,482520,001,2024-03-06_12h48.31.041,AB,2023.2.3,59.78912381117035,2024-03-06 12h48.43.426701 +0100,
果汁,果肉, j,0:09,0:06,0:06,九九,j,火烤,0,0,0,125,,,,,,,,,0,1,1,1,4.602049499982968,,,,,,,,,,,4.586310799932107,4.602049499982968,4.669204999925569,,,,,4.685420800000429,,,,,,,,,,,,,,,,,,,,,,,,,,,,,,,,,482520,001,2024-03-06_12h48.31.041,AB,2023.2.3,59.78912381117035,2024-03-06 12h48.43.426701 +0100,
果汁,果肉, j,0:09,0:06,0:06,九九,j,良智,0,0,0,125,,,,,,,,,0,2,2,0,4.685420800000429,,,,,,,,,,,4.66945039993152,4.685420800000429,4.752997699892148,,,,,4.768964600050822,,,,,,,,,,,,,,,,,,,,,,,,,,,,,,,,,482520,001,2024-03-06_12h48.31.041,AB,2023.2.3,59.78912381117035,2024-03-06 12h48.43.426701 +0100,
果汁,果肉, j,0:09,0:06,0:06,九九,j,线动,0,0,0,125,,,,,,,,,0,3,3,2,4.768964600050822,,,,,,,,,,,4.753257199889049,4.768964600050822,4.83642529998906,,,,,4.8525050999596715,,,,,,,,,,,,,,,,,,,,,,,,,,,,,,,,,482520,001,2024-03-06_12h48.31.041,AB,2023.2.3,59.78912381117035,2024-03-06 12h48.43.426701 +0100,
果汁,果肉, j,0:09,0:06,0:06,九九,j,体桑,0,0,0,125,,,,,,,,,0,4,4,3,4.8525050999596715,,,,,,,,,,,4.836726299952716,4.8525050999596715,4.919776299968362,,,,,4.9357596999034286,,,,,,,,,,,,,,,,,,,,,,,,,,,,,,,,,482520,001,2024-03-06_12h48.31.041,AB,2023.2.3,59.78912381117035,2024-03-06 12h48.43.426701 +0100,
霉变,霉菌, f,0:09,0:02,0:09,一一,j,土咽,0,1,1,346,,,,,0,0,0,4,,,,,15.862722999881953,,,,,12.911007900023833,12.926476900000125,13.927513299975544,13.927513299975544,14.928586799884215,14.912823599996045,15.855347499949858,15.862722999881953,15.930313099874184,15.663181599928066,15.779348599957302,15.862722999881953,15.84680960001424,15.94647779990919,,,,,4.9198517999611795,4.9357596999034286,5.936890499899164,5.936890499899164,5.936890499899164,7.939030600013211,7.939030600013211,7.939030600013211,8.939896599855274,8.923472800059244,None,0,8.923891399987042,8.939896599855274,9.940793399931863,9.940793399931863,9.940793399931863,11.925731200026348,11.942700200015679,11.942700200015679,12.926476900000125,12.91044700006023,None,0,,,,,482520,001,2024-03-06_12h48.31.041,AB,2023.2.3,59.78912381117035,2024-03-06 12h48.43.426701 +0100,
霉变,霉菌, f,0:09,0:02,0:09,一一,j,线动,0,1,1,346,,,,,0,1,1,2,,,,,15.94647779990919,,,,,,,,,,,15.930569800082594,15.94647779990919,16.013380700023845,,,,,16.02973619988188,,,,,,,,,,,,,,,,,,,,,,,,,,,,,,,,,482520,001,2024-03-06_12h48.31.041,AB,2023.2.3,59.78912381117035,2024-03-06 12h48.43.426701 +0100,
霉变,霉菌, f,0:09,0:02,0:09,一一,j,火烤,0,1,1,346,,,,,0,2,2,1,,,,,16.02973619988188,,,,,,,,,,,16.013637399999425,16.02973619988188,16.096873099915683,,,,,16.11313880002126,,,,,,,,,,,,,,,,,,,,,,,,,,,,,,,,,482520,001,2024-03-06_12h48.31.041,AB,2023.2.3,59.78912381117035,2024-03-06 12h48.43.426701 +0100,
霉变,霉菌, f,0:09,0:02,0:09,一一,j,体桑,0,1,1,346,,,,,0,3,3,3,,,,,16.11313880002126,,,,,,,,,,,16.09720249986276,16.11313880002126,16.18031940003857,,,,,16.196462499909103,,,,,,,,,,,,,,,,,,,,,,,,,,,,,,,,,482520,001,2024-03-06_12h48.31.041,AB,2023.2.3,59.78912381117035,2024-03-06 12h48.43.426701 +0100,
霉变,霉菌, f,0:09,0:02,0:09,一一,j,良智,0,1,1,346,,,,,0,4,4,0,,,,,16.196462499909103,,,,,,,,,,,16.180594299919903,16.196462499909103,16.26398460008204,,,,,16.280187600059435,,,,,,,,,,,,,,,,,,,,,,,,,,,,,,,,,482520,001,2024-03-06_12h48.31.041,AB,2023.2.3,59.78912381117035,2024-03-06 12h48.43.426701 +0100,
霉变,霉菌, f,0:09,0:02,0:09,一一,j,良智,0,1,1,346,,,,,,,,,0,0,0,0,16.446729900082573,,,,,,,,,,,16.43947679991834,16.446729900082573,16.51395529997535,,,,,16.53019109996967,16.264059399953112,16.363572499947622,16.446729900082573,16.430790999904275,,,,,,,,,,,,,,,,,,,,,,,,,,,,,482520,001,2024-03-06_12h48.31.041,AB,2023.2.3,59.78912381117035,2024-03-06 12h48.43.426701 +0100,
霉变,霉菌, f,0:09,0:02,0:09,一一,j,体桑,0,1,1,346,,,,,,,,,0,1,1,3,16.53019109996967,,,,,,,,,,,16.51421539997682,16.53019109996967,16.597321199951693,,,,,16.61403589998372,,,,,,,,,,,,,,,,,,,,,,,,,,,,,,,,,482520,001,2024-03-06_12h48.31.041,AB,2023.2.3,59.78912381117035,2024-03-06 12h48.43.426701 +0100,
霉变,霉菌, f,0:09,0:02,0:09,一一,j,土咽,0,1,1,346,,,,,,,,,0,2,2,4,16.61403589998372,,,,,,,,,,,16.597566799959168,16.61403589998372,16.680879999883473,,,,,16.696991299977526,,,,,,,,,,,,,,,,,,,,,,,,,,,,,,,,,482520,001,2024-03-06_12h48.31.041,AB,2023.2.3,59.78912381117035,2024-03-06 12h48.43.426701 +0100,
霉变,霉菌, f,0:09,0:02,0:09,一一,j,线动,0,1,1,346,,,,,,,,,0,3,3,2,16.696991299977526,,,,,,,,,,,16.68128030002117,16.696991299977526,16.76405410002917,,,,,16.78041850007139,,,,,,,,,,,,,,,,,,,,,,,,,,,,,,,,,482520,001,2024-03-06_12h48.31.041,AB,2023.2.3,59.78912381117035,2024-03-06 12h48.43.426701 +0100,
霉变,霉菌, f,0:09,0:02,0:09,一一,j,火烤,0,1,1,346,,,,,,,,,0,4,4,1,16.78041850007139,,,,,,,,,,,16.764313800027594,16.78041850007139,16.84768919995986,,,,,16.86390269990079,,,,,,,,,,,,,,,,,,,,,,,,,,,,,,,,,482520,001,2024-03-06_12h48.31.041,AB,2023.2.3,59.78912381117035,2024-03-06 12h48.43.426701 +0100,
休息,放松, f,0:06,0:06,0:10,七七,j,土咽,0,2,2,271,,,,,0,0,0,4,,,,,22.553062200080603,,,,,19.868424399988726,19.883398399921134,20.867844599997625,20.884500100044534,21.86866659997031,21.852996999863535,22.546054699923843,22.553062200080603,22.620113200042397,22.353148799855262,22.46994169987738,22.553062200080603,22.537297500064597,22.63625769992359,,,,,16.847780999960378,16.86390269990079,17.864891399862245,17.864891399862245,17.864891399862245,,,,,18.44971979991533,f,0,18.450225200038403,18.465448400005698,19.466510399943218,19.449746700003743,19.449746700003743,,,,,19.867642499972135,f,0,0.5748769999481738,None,0.41435389989055693,None,482520,001,2024-03-06_12h48.31.041,AB,2023.2.3,59.78912381117035,2024-03-06 12h48.43.426701 +0100,
休息,放松, f,0:06,0:06,0:10,七七,j,体桑,0,2,2,271,,,,,0,1,1,3,,,,,22.63625769992359,,,,,,,,,,,22.620367700001225,22.63625769992359,22.70350499986671,,,,,22.719646899960935,,,,,,,,,,,,,,,,,,,,,,,,,,,,,,,,,482520,001,2024-03-06_12h48.31.041,AB,2023.2.3,59.78912381117035,2024-03-06 12h48.43.426701 +0100,
休息,放松, f,0:06,0:06,0:10,七七,j,线动,0,2,2,271,,,,,0,2,2,2,,,,,22.719646899960935,,,,,,,,,,,22.70375439990312,22.719646899960935,22.787055399967358,,,,,22.8032491998747,,,,,,,,,,,,,,,,,,,,,,,,,,,,,,,,,482520,001,2024-03-06_12h48.31.041,AB,2023.2.3,59.78912381117035,2024-03-06 12h48.43.426701 +0100,
休息,放松, f,0:06,0:06,0:10,七七,j,良智,0,2,2,271,,,,,0,3,3,0,,,,,22.8032491998747,,,,,,,,,,,22.787314200075343,22.8032491998747,22.870854599867016,,,,,22.886948300059885,,,,,,,,,,,,,,,,,,,,,,,,,,,,,,,,,482520,001,2024-03-06_12h48.31.041,AB,2023.2.3,59.78912381117035,2024-03-06 12h48.43.426701 +0100,
休息,放松, f,0:06,0:06,0:10,七七,j,火烤,0,2,2,271,,,,,0,4,4,1,,,,,22.886948300059885,,,,,,,,,,,22.871108799939975,22.886948300059885,22.95364800002426,,,,,22.97056689998135,,,,,,,,,,,,,,,,,,,,,,,,,,,,,,,,,482520,001,2024-03-06_12h48.31.041,AB,2023.2.3,59.78912381117035,2024-03-06 12h48.43.426701 +0100,
休息,放松, f,0:06,0:06,0:10,七七,j,土咽,0,2,2,271,,,,,,,,,0,0,0,4,23.136555599980056,,,,,,,,,,,23.128847500076517,23.136555599980056,23.204178599873558,,,,,23.220229000085965,22.95372679992579,23.053274099947885,23.136555599980056,23.12038129987195,,,,,,,,,,,,,,,,,,,,,,,,,,,,,482520,001,2024-03-06_12h48.31.041,AB,2023.2.3,59.78912381117035,2024-03-06 12h48.43.426701 +0100,
休息,放松, f,0:06,0:06,0:10,七七,j,体桑,0,2,2,271,,,,,,,,,0,1,1,3,23.220229000085965,,,,,,,,,,,23.204433500068262,23.220229000085965,23.287768400041386,,,,,23.303620799910277,,,,,,,,,,,,,,,,,,,,,,,,,,,,,,,,,482520,001,2024-03-06_12h48.31.041,AB,2023.2.3,59.78912381117035,2024-03-06 12h48.43.426701 +0100,
休息,放松, f,0:06,0:06,0:10,七七,j,良智,0,2,2,271,,,,,,,,,0,2,2,0,23.303620799910277,,,,,,,,,,,23.288025399902835,23.303620799910277,23.370888999896124,,,,,23.386875299969688,,,,,,,,,,,,,,,,,,,,,,,,,,,,,,,,,482520,001,2024-03-06_12h48.31.041,AB,2023.2.3,59.78912381117035,2024-03-06 12h48.43.426701 +0100,
休息,放松, f,0:06,0:06,0:10,七七,j,线动,0,2,2,271,,,,,,,,,0,3,3,2,23.386875299969688,,,,,,,,,,,23.371134199900553,23.386875299969688,23.45414060004987,,,,,23.47039519995451,,,,,,,,,,,,,,,,,,,,,,,,,,,,,,,,,482520,001,2024-03-06_12h48.31.041,AB,2023.2.3,59.78912381117035,2024-03-06 12h48.43.426701 +0100,
休息,放松, f,0:06,0:06,0:10,七七,j,火烤,0,2,2,271,,,,,,,,,0,4,4,1,23.47039519995451,,,,,,,,,,,23.454395100008696,23.47039519995451,23.53796169999987,,,,,23.553860999876633,,,,,,,,,,,,,,,,,,,,,,,,,,,,,,,,,482520,001,2024-03-06_12h48.31.041,AB,2023.2.3,59.78912381117035,2024-03-06 12h48.43.426701 +0100,
炎热,寒冷, j,0:06,0:06,0:03,四四,f,线动,0,3,3,331,,,,,0,0,0,2,,,,,30.110314999939874,,,,,27.425511399982497,27.44096009992063,28.425329099874943,28.442074599908665,29.426083399914205,29.410221599973738,30.103347999975085,30.110314999939874,30.178123000077903,29.91075520007871,30.02681709988974,30.110314999939874,30.09463019995019,30.194404100067914,,,,,23.538037999998778,23.553860999876633,24.554965500021353,24.554965500021353,24.554965500021353,,,,,25.790109500056133,f,0,25.79040089994669,25.806597699876875,26.807277200045064,26.79087849985808,26.79087849985808,,,,,27.425119600025937,f,0,1.2206278000958264,None,0.6174454998690635,None,482520,001,2024-03-06_12h48.31.041,AB,2023.2.3,59.78912381117035,2024-03-06 12h48.43.426701 +0100,
炎热,寒冷, j,0:06,0:06,0:03,四四,f,火烤,0,3,3,331,,,,,0,1,1,1,,,,,30.194404100067914,,,,,,,,,,,30.17838259995915,30.194404100067914,30.261268300004303,,,,,30.27725789998658,,,,,,,,,,,,,,,,,,,,,,,,,,,,,,,,,482520,001,2024-03-06_12h48.31.041,AB,2023.2.3,59.78912381117035,2024-03-06 12h48.43.426701 +0100,
炎热,寒冷, j,0:06,0:06,0:03,四四,f,体桑,0,3,3,331,,,,,0,2,2,3,,,,,30.27725789998658,,,,,,,,,,,30.26151270000264,30.27725789998658,30.344521099934354,,,,,30.360775799956173,,,,,,,,,,,,,,,,,,,,,,,,,,,,,,,,,482520,001,2024-03-06_12h48.31.041,AB,2023.2.3,59.78912381117035,2024-03-06 12h48.43.426701 +0100,
炎热,寒冷, j,0:06,0:06,0:03,四四,f,良智,0,3,3,331,,,,,0,3,3,0,,,,,30.360775799956173,,,,,,,,,,,30.34476640005596,30.360775799956173,30.428161700023338,,,,,30.444121199892834,,,,,,,,,,,,,,,,,,,,,,,,,,,,,,,,,482520,001,2024-03-06_12h48.31.041,AB,2023.2.3,59.78912381117035,2024-03-06 12h48.43.426701 +0100,
炎热,寒冷, j,0:06,0:06,0:03,四四,f,土咽,0,3,3,331,,,,,0,4,4,4,,,,,30.444121199892834,,,,,,,,,,,30.42843810003251,30.444121199892834,30.51161519996822,,,,,30.52773420000449,,,,,,,,,,,,,,,,,,,,,,,,,,,,,,,,,482520,001,2024-03-06_12h48.31.041,AB,2023.2.3,59.78912381117035,2024-03-06 12h48.43.426701 +0100,
炎热,寒冷, j,0:06,0:06,0:03,四四,f,土咽,0,3,3,331,,,,,,,,,0,0,0,4,30.694284199969843,,,,,,,,,,,30.686425300082192,30.694284199969843,30.761537899961695,,,,,30.777755599934608,30.511713499901816,30.61083099991083,30.694284199969843,30.678166500059888,,,,,,,,,,,,,,,,,,,,,,,,,,,,,482520,001,2024-03-06_12h48.31.041,AB,2023.2.3,59.78912381117035,2024-03-06 12h48.43.426701 +0100,
炎热,寒冷, j,0:06,0:06,0:03,四四,f,良智,0,3,3,331,,,,,,,,,0,1,1,0,30.777755599934608,,,,,,,,,,,30.76179019990377,30.777755599934608,30.84534620004706,,,,,30.861675000051036,,,,,,,,,,,,,,,,,,,,,,,,,,,,,,,,,482520,001,2024-03-06_12h48.31.041,AB,2023.2.3,59.78912381117035,2024-03-06 12h48.43.426701 +0100,
炎热,寒冷, j,0:06,0:06,0:03,四四,f,线动,0,3,3,331,,,,,,,,,0,2,2,2,30.861675000051036,,,,,,,,,,,30.845601999899372,30.861675000051036,30.92842120002024,,,,,30.94441709993407,,,,,,,,,,,,,,,,,,,,,,,,,,,,,,,,,482520,001,2024-03-06_12h48.31.041,AB,2023.2.3,59.78912381117035,2024-03-06 12h48.43.426701 +0100,
炎热,寒冷, j,0:06,0:06,0:03,四四,f,火烤,0,3,3,331,,,,,,,,,0,3,3,1,30.94441709993407,,,,,,,,,,,30.928727499907836,30.94441709993407,31.011846999870613,,,,,31.028142899973318,,,,,,,,,,,,,,,,,,,,,,,,,,,,,,,,,482520,001,2024-03-06_12h48.31.041,AB,2023.2.3,59.78912381117035,2024-03-06 12h48.43.426701 +0100,
炎热,寒冷, j,0:06,0:06,0:03,四四,f,体桑,0,3,3,331,,,,,,,,,0,4,4,3,31.028142899973318,,,,,,,,,,,31.012091799871996,31.028142899973318,31.095160400029272,,,,,31.111392699880525,,,,,,,,,,,,,,,,,,,,,,,,,,,,,,,,,482520,001,2024-03-06_12h48.31.041,AB,2023.2.3,59.78912381117035,2024-03-06 12h48.43.426701 +0100,
现金,支票, j,0:06,0.0,0:12,十十,j,火烤,0,4,4,189,,,,,0,0,0,1,,,,,37.25199749995954,,,,,34.56611989997327,34.581499699968845,35.5660407000687,35.58253629994579,36.56724540004507,36.55066329985857,37.24546019989066,37.25199749995954,37.31926549994387,37.05302089988254,37.16847290005535,37.25199749995954,37.23601239989512,37.33510609995574,,,,,31.095233399886638,31.111392699880525,32.112340699881315,32.112340699881315,32.112340699881315,,,,,32.93064679997042,j,0,32.930921900086105,32.946757399942726,33.947541299974546,33.931320199975744,33.931320199975744,,,,,34.565716200042516,j,0,0.8071019998751581,None,0.6206398999784142,None,482520,001,2024-03-06_12h48.31.041,AB,2023.2.3,59.78912381117035,2024-03-06 12h48.43.426701 +0100,
现金,支票, j,0:06,0.0,0:12,十十,j,良智,0,4,4,189,,,,,0,1,1,0,,,,,37.33510609995574,,,,,,,,,,,37.31951539986767,37.33510609995574,37.40243800007738,,,,,37.41903809993528,,,,,,,,,,,,,,,,,,,,,,,,,,,,,,,,,482520,001,2024-03-06_12h48.31.041,AB,2023.2.3,59.78912381117035,2024-03-06 12h48.43.426701 +0100,
现金,支票, j,0:06,0.0,0:12,十十,j,体桑,0,4,4,189,,,,,0,2,2,3,,,,,37.41903809993528,,,,,,,,,,,37.40269870008342,37.41903809993528,37.48593269987032,,,,,37.50215549999848,,,,,,,,,,,,,,,,,,,,,,,,,,,,,,,,,482520,001,2024-03-06_12h48.31.041,AB,2023.2.3,59.78912381117035,2024-03-06 12h48.43.426701 +0100,
现金,支票, j,0:06,0.0,0:12,十十,j,线动,0,4,4,189,,,,,0,3,3,2,,,,,37.50215549999848,,,,,,,,,,,37.48619359987788,37.50215549999848,37.56987929996103,,,,,37.58569259988144,,,,,,,,,,,,,,,,,,,,,,,,,,,,,,,,,482520,001,2024-03-06_12h48.31.041,AB,2023.2.3,59.78912381117035,2024-03-06 12h48.43.426701 +0100,
现金,支票, j,0:06,0.0,0:12,十十,j,土咽,0,4,4,189,,,,,0,4,4,4,,,,,37.58569259988144,,,,,,,,,,,37.570134199922904,37.58569259988144,37.65282729989849,,,,,37.66919480008073,,,,,,,,,,,,,,,,,,,,,,,,,,,,,,,,,482520,001,2024-03-06_12h48.31.041,AB,2023.2.3,59.78912381117035,2024-03-06 12h48.43.426701 +0100,
现金,支票, j,0:06,0.0,0:12,十十,j,良智,0,4,4,189,,,,,,,,,0,0,0,0,37.83654469996691,,,,,,,,,,,37.82929360005073,37.83654469996691,37.903164099901915,,,,,37.91934200003743,37.65290139988065,37.75288169994019,37.83654469996691,37.82043319987133,,,,,,,,,,,,,,,,,,,,,,,,,,,,,482520,001,2024-03-06_12h48.31.041,AB,2023.2.3,59.78912381117035,2024-03-06 12h48.43.426701 +0100,
现金,支票, j,0:06,0.0,0:12,十十,j,土咽,0,4,4,189,,,,,,,,,0,1,1,4,37.91934200003743,,,,,,,,,,,37.903415699955076,37.91934200003743,37.98640489997342,,,,,38.00286250002682,,,,,,,,,,,,,,,,,,,,,,,,,,,,,,,,,482520,001,2024-03-06_12h48.31.041,AB,2023.2.3,59.78912381117035,2024-03-06 12h48.43.426701 +0100,
现金,支票, j,0:06,0.0,0:12,十十,j,火烤,0,4,4,189,,,,,,,,,0,2,2,1,38.00286250002682,,,,,,,,,,,37.98666849988513,38.00286250002682,38.07065019989386,,,,,38.08637399994768,,,,,,,,,,,,,,,,,,,,,,,,,,,,,,,,,482520,001,2024-03-06_12h48.31.041,AB,2023.2.3,59.78912381117035,2024-03-06 12h48.43.426701 +0100,
现金,支票, j,0:06,0.0,0:12,十十,j,线动,0,4,4,189,,,,,,,,,0,3,3,2,38.08637399994768,,,,,,,,,,,38.07095499988645,38.08637399994768,38.15382119989954,,,,,38.16958909993991,,,,,,,,,,,,,,,,,,,,,,,,,,,,,,,,,482520,001,2024-03-06_12h48.31.041,AB,2023.2.3,59.78912381117035,2024-03-06 12h48.43.426701 +0100,
现金,支票, j,0:06,0.0,0:12,十十,j,体桑,0,4,4,189,,,,,,,,,0,4,4,3,38.16958909993991,,,,,,,,,,,38.15412209997885,38.16958909993991,38.23704329994507,,,,,38.25268999999389,,,,,,,,,,,,,,,,,,,,,,,,,,,,,,,,,482520,001,2024-03-06_12h48.31.041,AB,2023.2.3,59.78912381117035,2024-03-06 12h48.43.426701 +0100,
,,,,,,,,,,,,,,,,,,,,,,,,,,,,,,,,,,,,,,,,,,,,,,,,38.23713320004754,38.25268999999389,39.25444300007075,39.25444300007075,39.25444300007075,,,,,,,,,,,,,,,,,,,,,,,,,,,,,,,
